Time[ps]      Etot[eV]     Epot[eV]     Ekin[eV]    T[K]
0.0005        -299.3246    -307.1513       7.8267   829.5
0.0010        -300.1262    -315.5710      15.4448  1636.8
0.0015        -299.7684    -318.3006      18.5322  1964.0
0.0020        -299.6877    -320.0261      20.3384  2155.4
0.0025        -300.5587    -324.2175      23.6589  2507.3
0.0030        -300.9966    -325.4707      24.4741  2593.7
0.0035        -301.7438    -325.3973      23.6535  2506.7
0.0040        -302.6788    -325.1211      22.4423  2378.4
0.0045        -303.7200    -324.9737      21.2538  2252.4
0.0050        -304.8470    -325.0476      20.2006  2140.8
0.0055        -306.0591    -325.3104      19.2513  2040.2
0.0060        -307.3373    -325.6532      18.3160  1941.1
0.0065        -308.6578    -325.9883      17.3306  1836.6
0.0070        -309.9879    -326.2726      16.2847  1725.8
0.0075        -311.3098    -326.5034      15.1936  1610.2
0.0080        -312.6088    -326.6907      14.0819  1492.4
0.0085        -313.8677    -326.8480      12.9803  1375.6
0.0090        -315.0735    -326.9929      11.9193  1263.2
0.0095        -316.2202    -327.1456      10.9254  1157.8
0.0100        -317.3050    -327.3244      10.0195  1061.8
0.0105        -318.3290    -327.5372       9.2083   975.9
0.0110        -319.2918    -327.7668       8.4750   898.2
0.0115        -320.1957    -327.9896       7.7939   826.0
0.0120        -321.0381    -328.1766       7.1386   756.5
0.0125        -321.8167    -328.3083       6.4916   688.0
0.0130        -322.5298    -328.3838       5.8540   620.4
0.0135        -323.1760    -328.4167       5.2408   555.4
0.0140        -323.7566    -328.4377       4.6811   496.1
0.0145        -324.2794    -328.4860       4.2066   445.8
0.0150        -324.7553    -328.5911       3.8358   406.5
0.0155        -325.1965    -328.7608       3.5643   377.7
0.0160        -325.6123    -328.9774       3.3650   356.6
0.0165        -326.0055    -329.2089       3.2034   339.5
0.0170        -326.3800    -329.4341       3.0540   323.7
0.0175        -326.7352    -329.6391       2.9039   307.7
0.0180        -327.0713    -329.8222       2.7509   291.5
0.0185        -327.3884    -329.9897       2.6014   275.7
0.0190        -327.6879    -330.1523       2.4644   261.2
0.0195        -327.9713    -330.3195       2.3483   248.9
0.0200        -328.2424    -330.4997       2.2573   239.2
0.0205        -328.5040    -330.6952       2.1912   232.2
0.0210        -328.7588    -330.9068       2.1480   227.6
0.0215        -329.0091    -331.1341       2.1250   225.2
0.0220        -329.2579    -331.3773       2.1194   224.6
0.0225        -329.5067    -331.6368       2.1302   225.8
0.0230        -329.7570    -331.9136       2.1566   228.6
0.0235        -330.0125    -332.2100       2.1975   232.9
0.0240        -330.2735    -332.5249       2.2515   238.6
0.0245        -330.5387    -332.8536       2.3149   245.3
0.0250        -330.8055    -333.1860       2.3804   252.3
0.0255        -331.0766    -333.5135       2.4368   258.2
0.0260        -331.3533    -333.8215       2.4682   261.6
0.0265        -331.6322    -334.0794       2.4472   259.4
0.0270        -331.9047    -334.2335       2.3288   246.8
0.0275        -332.1523    -334.2228       2.0705   219.4
0.0280        -332.3541    -334.0480       1.6939   179.5
0.0285        -332.5059    -333.8459       1.3400   142.0
0.0290        -332.6395    -333.8339       1.1944   126.6
0.0295        -332.7852    -334.0622       1.2771   135.3
0.0300        -332.9407    -334.3558       1.4150   150.0
0.0305        -333.0956    -334.5484       1.4528   154.0
0.0310        -333.2421    -334.6076       1.3655   144.7
0.0315        -333.3738    -334.5800       1.2062   127.8
0.0320        -333.4884    -334.5226       1.0342   109.6
0.0325        -333.5866    -334.4748       0.8882    94.1
0.0330        -333.6720    -334.4585       0.7866    83.4
0.0335        -333.7491    -334.4822       0.7331    77.7
0.0340        -333.8225    -334.5464       0.7238    76.7
0.0345        -333.8964    -334.6473       0.7509    79.6
0.0350        -333.9740    -334.7774       0.8034    85.1
0.0355        -334.0567    -334.9249       0.8682    92.0
0.0360        -334.1454    -335.0752       0.9298    98.5
0.0365        -334.2385    -335.2095       0.9710   102.9
0.0370        -334.3324    -335.3091       0.9766   103.5
0.0375        -334.4231    -335.3615       0.9384    99.4
0.0380        -334.5059    -335.3697       0.8638    91.5
0.0385        -334.5796    -335.3602       0.7805    82.7
0.0390        -334.6469    -335.3699       0.7230    76.6
0.0395        -334.7123    -335.4209       0.7086    75.1
0.0400        -334.7785    -335.5039       0.7253    76.9
0.0405        -334.8456    -335.5895       0.7439    78.8
0.0410        -334.9115    -335.6532       0.7417    78.6
0.0415        -334.9744    -335.6887       0.7143    75.7
0.0420        -335.0332    -335.7025       0.6693    70.9
0.0425        -335.0873    -335.7061       0.6189    65.6
0.0430        -335.1368    -335.7088       0.5720    60.6
0.0435        -335.1824    -335.7163       0.5339    56.6
0.0440        -335.2250    -335.7319       0.5068    53.7
0.0445        -335.2653    -335.7552       0.4898    51.9
0.0450        -335.3040    -335.7848       0.4808    51.0
0.0455        -335.3418    -335.8198       0.4780    50.7
0.0460        -335.3790    -335.8592       0.4802    50.9
0.0465        -335.4160    -335.9023       0.4863    51.5
0.0470        -335.4533    -335.9484       0.4951    52.5
0.0475        -335.4907    -335.9958       0.5051    53.5
0.0480        -335.5284    -336.0422       0.5138    54.5
0.0485        -335.5661    -336.0850       0.5189    55.0
0.0490        -335.6035    -336.1215       0.5181    54.9
0.0495        -335.6398    -336.1494       0.5096    54.0
0.0500        -335.6746    -336.1682       0.4936    52.3
0.0505        -335.7075    -336.1792       0.4717    50.0
0.0510        -335.7381    -336.1858       0.4477    47.4
0.0515        -335.7667    -336.1942       0.4276    45.3
0.0520        -335.7939    -336.2097       0.4159    44.1
0.0525        -335.8204    -336.2345       0.4140    43.9
0.0530        -335.8468    -336.2659       0.4192    44.4
0.0535        -335.8730    -336.2992       0.4262    45.2
0.0540        -335.8990    -336.3299       0.4309    45.7
0.0545        -335.9247    -336.3554       0.4307    45.6
0.0550        -335.9495    -336.3745       0.4250    45.0
0.0555        -335.9735    -336.3886       0.4151    44.0
0.0560        -335.9964    -336.3994       0.4030    42.7
0.0565        -336.0182    -336.4087       0.3906    41.4
0.0570        -336.0389    -336.4182       0.3793    40.2
0.0575        -336.0586    -336.4282       0.3696    39.2
0.0580        -336.0776    -336.4392       0.3616    38.3
0.0585        -336.0957    -336.4510       0.3552    37.6
0.0590        -336.1132    -336.4637       0.3504    37.1
0.0595        -336.1302    -336.4774       0.3472    36.8
0.0600        -336.1467    -336.4922       0.3456    36.6
0.0605        -336.1628    -336.5081       0.3453    36.6
0.0610        -336.1785    -336.5246       0.3461    36.7
0.0615        -336.1939    -336.5412       0.3473    36.8
0.0620        -336.2089    -336.5573       0.3484    36.9
0.0625        -336.2236    -336.5724       0.3489    37.0
0.0630        -336.2378    -336.5861       0.3482    36.9
0.0635        -336.2516    -336.5981       0.3465    36.7
0.0640        -336.2649    -336.6086       0.3437    36.4
0.0645        -336.2777    -336.6179       0.3401    36.0
0.0650        -336.2900    -336.6262       0.3362    35.6
0.0655        -336.3018    -336.6343       0.3325    35.2
0.0660        -336.3132    -336.6427       0.3295    34.9
0.0665        -336.3241    -336.6520       0.3280    34.8
0.0670        -336.3346    -336.6628       0.3283    34.8
0.0675        -336.3448    -336.6755       0.3307    35.0
0.0680        -336.3548    -336.6900       0.3352    35.5
0.0685        -336.3646    -336.7062       0.3416    36.2
0.0690        -336.3742    -336.7235       0.3492    37.0
0.0695        -336.3837    -336.7411       0.3574    37.9
0.0700        -336.3930    -336.7583       0.3652    38.7
0.0705        -336.4022    -336.7741       0.3720    39.4
0.0710        -336.4110    -336.7879       0.3769    39.9
0.0715        -336.4194    -336.7993       0.3798    40.3
0.0720        -336.4275    -336.8085       0.3810    40.4
0.0725        -336.4351    -336.8167       0.3816    40.4
0.0730        -336.4423    -336.8251       0.3828    40.6
0.0735        -336.4492    -336.8349       0.3857    40.9
0.0740        -336.4557    -336.8466       0.3908    41.4
0.0745        -336.4620    -336.8605       0.3986    42.2
0.0750        -336.4679    -336.8765       0.4085    43.3
0.0755        -336.4736    -336.8937       0.4201    44.5
0.0760        -336.4790    -336.9114       0.4324    45.8
0.0765        -336.4841    -336.9287       0.4446    47.1
0.0770        -336.4887    -336.9448       0.4561    48.3
0.0775        -336.4930    -336.9599       0.4668    49.5
0.0780        -336.4969    -336.9739       0.4770    50.5
0.0785        -336.5004    -336.9872       0.4868    51.6
0.0790        -336.5034    -337.0000       0.4965    52.6
0.0795        -336.5060    -337.0125       0.5065    53.7
0.0800        -336.5081    -337.0249       0.5168    54.8
0.0805        -336.5098    -337.0371       0.5273    55.9
0.0810        -336.5109    -337.0487       0.5378    57.0
0.0815        -336.5114    -337.0596       0.5481    58.1
0.0820        -336.5115    -337.0696       0.5582    59.2
0.0825        -336.5109    -337.0790       0.5681    60.2
0.0830        -336.5097    -337.0879       0.5782    61.3
0.0835        -336.5079    -337.0969       0.5890    62.4
0.0840        -336.5055    -337.1064       0.6009    63.7
0.0845        -336.5025    -337.1167       0.6142    65.1
0.0850        -336.4988    -337.1274       0.6286    66.6
0.0855        -336.4944    -337.1380       0.6436    68.2
0.0860        -336.4893    -337.1481       0.6589    69.8
0.0865        -336.4833    -337.1576       0.6743    71.5
0.0870        -336.4765    -337.1662       0.6897    73.1
0.0875        -336.4689    -337.1741       0.7052    74.7
0.0880        -336.4604    -337.1813       0.7209    76.4
0.0885        -336.4510    -337.1883       0.7374    78.1
0.0890        -336.4406    -337.1952       0.7545    80.0
0.0895        -336.4293    -337.2017       0.7724    81.9
0.0900        -336.4170    -337.2078       0.7907    83.8
0.0905        -336.4036    -337.2132       0.8095    85.8
0.0910        -336.3892    -337.2183       0.8291    87.9
0.0915        -336.3736    -337.2234       0.8498    90.1
0.0920        -336.3568    -337.2293       0.8725    92.5
0.0925        -336.3389    -337.2365       0.8976    95.1
0.0930        -336.3196    -337.2448       0.9252    98.1
0.0935        -336.2988    -337.2539       0.9551   101.2
0.0940        -336.2765    -337.2636       0.9872   104.6
0.0945        -336.2525    -337.2737       1.0211   108.2
0.0950        -336.2268    -337.2837       1.0569   112.0
0.0955        -336.1993    -337.2940       1.0947   116.0
0.0960        -336.1698    -337.3048       1.1351   120.3
0.0965        -336.1382    -337.3168       1.1786   124.9
0.0970        -336.1045    -337.3306       1.2261   129.9
0.0975        -336.0684    -337.3464       1.2779   135.4
0.0980        -336.0299    -337.3641       1.3341   141.4
0.0985        -335.9887    -337.3829       1.3942   147.7
0.0990        -335.9446    -337.4020       1.4574   154.5
0.0995        -335.8975    -337.4207       1.5232   161.4
0.1000        -335.8473    -337.4385       1.5912   168.6
0.1005        -335.7938    -337.4553       1.6614   176.1
0.1010        -335.7369    -337.4710       1.7341   183.8
0.1015        -335.6766    -337.4861       1.8095   191.8
0.1020        -335.6125    -337.5011       1.8886   200.1
0.1025        -335.5448    -337.5170       1.9723   209.0
0.1030        -335.4730    -337.5341       2.0611   218.4
0.1035        -335.3972    -337.5524       2.1553   228.4
0.1040        -335.3169    -337.5712       2.2543   238.9
0.1045        -335.2322    -337.5899       2.3577   249.9
0.1050        -335.1427    -337.6074       2.4647   261.2
0.1055        -335.0483    -337.6219       2.5736   272.7
0.1060        -334.9492    -337.6320       2.6828   284.3
0.1065        -334.8454    -337.6360       2.7906   295.7
0.1070        -334.7371    -337.6319       2.8948   306.8
0.1075        -334.6245    -337.6174       2.9929   317.2
0.1080        -334.5078    -337.5915       3.0838   326.8
0.1085        -334.3873    -337.5556       3.1683   335.8
0.1090        -334.2635    -337.5133       3.2498   344.4
0.1095        -334.1365    -337.4708       3.3343   353.4
0.1100        -334.0060    -337.4357       3.4297   363.5
0.1105        -333.8719    -337.4151       3.5431   375.5
0.1110        -333.7338    -337.4114       3.6776   389.7
0.1115        -333.5910    -337.4209       3.8298   405.9
0.1120        -333.4432    -337.4343       3.9910   423.0
0.1125        -333.2905    -337.4414       4.1509   439.9
0.1130        -333.1331    -337.4341       4.3010   455.8
0.1135        -332.9716    -337.4077       4.4361   470.1
0.1140        -332.8073    -337.3639       4.5567   482.9
0.1145        -332.6411    -337.3073       4.6663   494.5
0.1150        -332.4734    -337.2426       4.7691   505.4
0.1155        -332.3051    -337.1752       4.8701   516.1
0.1160        -332.1364    -337.1093       4.9730   527.0
0.1165        -331.9675    -337.0467       5.0791   538.3
0.1170        -331.7985    -336.9863       5.1879   549.8
0.1175        -331.6293    -336.9287       5.2994   561.6
0.1180        -331.4613    -336.8753       5.4141   573.8
0.1185        -331.2933    -336.8243       5.5310   586.2
0.1190        -331.1272    -336.7784       5.6512   598.9
0.1195        -330.9622    -336.7377       5.7755   612.1
0.1200        -330.7993    -336.7036       5.9043   625.7
0.1205        -330.6391    -336.6765       6.0374   639.8
0.1210        -330.4816    -336.6543       6.1727   654.2
0.1215        -330.3277    -336.6355       6.3078   668.5
0.1220        -330.1777    -336.6161       6.4384   682.3
0.1225        -330.0326    -336.5935       6.5609   695.3
0.1230        -329.8932    -336.5645       6.6713   707.0
0.1235        -329.7599    -336.5263       6.7663   717.1
0.1240        -329.6343    -336.4790       6.8447   725.4
0.1245        -329.5164    -336.4223       6.9059   731.9
0.1250        -329.4072    -336.3588       6.9516   736.7
0.1255        -329.3068    -336.2920       6.9851   740.3
0.1260        -329.2157    -336.2287       7.0130   743.2
0.1265        -329.1347    -336.1761       7.0413   746.2
0.1270        -329.0634    -336.1370       7.0736   749.6
0.1275        -329.0021    -336.1128       7.1107   753.6
0.1280        -328.9513    -336.1018       7.1505   757.8
0.1285        -328.9105    -336.0982       7.1877   761.7
0.1290        -328.8804    -336.0967       7.2163   764.8
0.1295        -328.8610    -336.0910       7.2301   766.2
0.1300        -328.8520    -336.0764       7.2244   765.6
0.1305        -328.8534    -336.0529       7.1996   763.0
0.1310        -328.8652    -336.0266       7.1614   758.9
0.1315        -328.8877    -336.0070       7.1192   754.5
0.1320        -328.9207    -336.0022       7.0815   750.5
0.1325        -328.9645    -336.0158       7.0513   747.3
0.1330        -329.0188    -336.0420       7.0232   744.3
0.1335        -329.0821    -336.0700       6.9879   740.6
0.1340        -329.1550    -336.0947       6.9398   735.5
0.1345        -329.2369    -336.1113       6.8744   728.5
0.1350        -329.3272    -336.1157       6.7885   719.4
0.1355        -329.4254    -336.1057       6.6803   708.0
0.1360        -329.5298    -336.0815       6.5516   694.3
0.1365        -329.6405    -336.0485       6.4080   679.1
0.1370        -329.7557    -336.0112       6.2555   662.9
0.1375        -329.8755    -335.9754       6.0999   646.5
0.1380        -329.9988    -335.9444       5.9456   630.1
0.1385        -330.1249    -335.9199       5.7950   614.1
0.1390        -330.2537    -335.9025       5.6488   598.6
0.1395        -330.3844    -335.8893       5.5049   583.4
0.1400        -330.5159    -335.8753       5.3593   568.0
0.1405        -330.6482    -335.8585       5.2104   552.2
0.1410        -330.7801    -335.8391       5.0590   536.1
0.1415        -330.9115    -335.8208       4.9093   520.3
0.1420        -331.0420    -335.8077       4.7657   505.1
0.1425        -331.1712    -335.8024       4.6312   490.8
0.1430        -331.3001    -335.8077       4.5076   477.7
0.1435        -331.4279    -335.8190       4.3911   465.4
0.1440        -331.5543    -335.8289       4.2746   453.0
0.1445        -331.6789    -335.8294       4.1505   439.9
0.1450        -331.8005    -335.8138       4.0132   425.3
0.1455        -331.9188    -335.7819       3.8631   409.4
0.1460        -332.0332    -335.7373       3.7042   392.6
0.1465        -332.1431    -335.6848       3.5417   375.3
0.1470        -332.2485    -335.6313       3.3828   358.5
0.1475        -332.3494    -335.5849       3.2355   342.9
0.1480        -332.4461    -335.5525       3.1065   329.2
0.1485        -332.5392    -335.5383       2.9990   317.8
0.1490        -332.6295    -335.5417       2.9123   308.6
0.1495        -332.7170    -335.5581       2.8411   301.1
0.1500        -332.8023    -335.5798       2.7775   294.3
0.1505        -332.8852    -335.5984       2.7131   287.5
0.1510        -332.9653    -335.6067       2.6414   279.9
0.1515        -333.0420    -335.6020       2.5599   271.3
0.1520        -333.1153    -335.5879       2.4726   262.0
0.1525        -333.1852    -335.5719       2.3867   252.9
0.1530        -333.2521    -335.5616       2.3094   244.7
0.1535        -333.3166    -335.5597       2.2431   237.7
0.1540        -333.3787    -335.5632       2.1845   231.5
0.1545        -333.4383    -335.5662       2.1280   225.5
0.1550        -333.4950    -335.5647       2.0697   219.3
0.1555        -333.5491    -335.5592       2.0101   213.0
0.1560        -333.6006    -335.5523       1.9517   206.8
0.1565        -333.6497    -335.5475       1.8978   201.1
0.1570        -333.6965    -335.5483       1.8519   196.3
0.1575        -333.7414    -335.5580       1.8165   192.5
0.1580        -333.7848    -335.5773       1.7925   190.0
0.1585        -333.8268    -335.6052       1.7784   188.5
0.1590        -333.8676    -335.6393       1.7717   187.8
0.1595        -333.9074    -335.6766       1.7691   187.5
0.1600        -333.9463    -335.7128       1.7665   187.2
0.1605        -333.9839    -335.7438       1.7599   186.5
0.1610        -334.0204    -335.7666       1.7462   185.1
0.1615        -334.0554    -335.7786       1.7232   182.6
0.1620        -334.0883    -335.7800       1.6916   179.3
0.1625        -334.1196    -335.7763       1.6568   175.6
0.1630        -334.1491    -335.7751       1.6260   172.3
0.1635        -334.1774    -335.7832       1.6058   170.2
0.1640        -334.2049    -335.8025       1.5977   169.3
0.1645        -334.2314    -335.8296       1.5982   169.4
0.1650        -334.2570    -335.8585       1.6015   169.7
0.1655        -334.2813    -335.8837       1.6024   169.8
0.1660        -334.3045    -335.9035       1.5990   169.5
0.1665        -334.3266    -335.9188       1.5922   168.7
0.1670        -334.3476    -335.9310       1.5835   167.8
0.1675        -334.3674    -335.9416       1.5742   166.8
0.1680        -334.3862    -335.9516       1.5654   165.9
0.1685        -334.4039    -335.9615       1.5576   165.1
0.1690        -334.4205    -335.9712       1.5507   164.3
0.1695        -334.4360    -335.9811       1.5451   163.7
0.1700        -334.4504    -335.9911       1.5407   163.3
0.1705        -334.4638    -336.0006       1.5368   162.9
0.1710        -334.4762    -336.0087       1.5325   162.4
0.1715        -334.4875    -336.0150       1.5274   161.9
0.1720        -334.4975    -336.0193       1.5218   161.3
0.1725        -334.5065    -336.0239       1.5174   160.8
0.1730        -334.5144    -336.0320       1.5176   160.8
0.1735        -334.5215    -336.0472       1.5257   161.7
0.1740        -334.5281    -336.0703       1.5422   163.4
0.1745        -334.5339    -336.0980       1.5641   165.8
0.1750        -334.5389    -336.1248       1.5860   168.1
0.1755        -334.5428    -336.1454       1.6026   169.8
0.1760        -334.5457    -336.1561       1.6104   170.7
0.1765        -334.5474    -336.1552       1.6079   170.4
0.1770        -334.5479    -336.1435       1.5956   169.1
0.1775        -334.5474    -336.1239       1.5765   167.1
0.1780        -334.5457    -336.1014       1.5557   164.9
0.1785        -334.5430    -336.0827       1.5398   163.2
0.1790        -334.5394    -336.0743       1.5349   162.7
0.1795        -334.5351    -336.0792       1.5441   163.6
0.1800        -334.5301    -336.0959       1.5658   165.9
0.1805        -334.5241    -336.1184       1.5943   169.0
0.1810        -334.5169    -336.1389       1.6220   171.9
0.1815        -334.5083    -336.1517       1.6434   174.2
0.1820        -334.4986    -336.1548       1.6562   175.5
0.1825        -334.4874    -336.1495       1.6621   176.1
0.1830        -334.4752    -336.1410       1.6658   176.5
0.1835        -334.4621    -336.1345       1.6724   177.2
0.1840        -334.4480    -336.1322       1.6842   178.5
0.1845        -334.4332    -336.1338       1.7006   180.2
0.1850        -334.4170    -336.1356       1.7186   182.1
0.1855        -334.3995    -336.1354       1.7359   184.0
0.1860        -334.3809    -336.1329       1.7519   185.7
0.1865        -334.3609    -336.1286       1.7677   187.3
0.1870        -334.3398    -336.1254       1.7856   189.2
0.1875        -334.3175    -336.1257       1.8083   191.6
0.1880        -334.2939    -336.1312       1.8373   194.7
0.1885        -334.2690    -336.1425       1.8735   198.6
0.1890        -334.2427    -336.1593       1.9166   203.1
0.1895        -334.2150    -336.1790       1.9641   208.1
0.1900        -334.1856    -336.1972       2.0116   213.2
0.1905        -334.1544    -336.2082       2.0538   217.7
0.1910        -334.1216    -336.2084       2.0868   221.2
0.1915        -334.0870    -336.1965       2.1095   223.6
0.1920        -334.0510    -336.1762       2.1252   225.2
0.1925        -334.0137    -336.1556       2.1419   227.0
0.1930        -333.9753    -336.1449       2.1696   229.9
0.1935        -333.9359    -336.1508       2.2149   234.7
0.1940        -333.8950    -336.1720       2.2770   241.3
0.1945        -333.8522    -336.2009       2.3487   248.9
0.1950        -333.8072    -336.2271       2.4200   256.5
0.1955        -333.7597    -336.2418       2.4821   263.0
0.1960        -333.7101    -336.2411       2.5309   268.2
0.1965        -333.6587    -336.2258       2.5671   272.1
0.1970        -333.6057    -336.2002       2.5944   275.0
0.1975        -333.5518    -336.1712       2.6193   277.6
0.1980        -333.4967    -336.1452       2.6485   280.7
0.1985        -333.4402    -336.1278       2.6875   284.8
0.1990        -333.3824    -336.1227       2.7403   290.4
0.1995        -333.3228    -336.1312       2.8084   297.6
0.2000        -333.2615    -336.1510       2.8895   306.2
0.2005        -333.1980    -336.1767       2.9787   315.7
0.2010        -333.1322    -336.2012       3.0689   325.2
0.2015        -333.0641    -336.2178       3.1537   334.2
0.2020        -332.9937    -336.2242       3.2305   342.4
0.2025        -332.9217    -336.2228       3.3011   349.8
0.2030        -332.8483    -336.2176       3.3694   357.1
0.2035        -332.7732    -336.2121       3.4389   364.4
0.2040        -332.6976    -336.2089       3.5113   372.1
